Folder: data-science-portfolio/LaptopBatteryMonitor

Note: LaptopBatteryMonitor/README.md
## Laptop Battery Monitor (for MacOS X)

### Purpose
To report on historic data for three battery KPIs
- Cycle Count
- Full Charge Capacity (mAh)
- Voltage (mV)

### Demonstration

![picture](BatteryReport.png)

Track the status of these parameters by opening the file `BatteryReport.png` in a web-browser.

### Description of files

__[local.batterymonitor.plist](local.batterymonitor.plist)__ -
MacOS launchd program. 
To be edited (replace `PATH_TO_SCRIPT`) and to be placed in `~/Library/LaunchAgents`. 
Launches the following script (.sh) every hour (at minute = 0).
More info: http://www.launchd.info/

__[BatteryMonitor.sh](BatteryMonitor.sh)__ -
Queries information on the battery from the system_profiler command. 
Appends the information to the text file (.txt). 
Runs the follow python script (.py) to update the images with plots (.png).

__[BatteryMonitorData.txt](BatteryMonitorData.txt)__ -
Text file containing historic data.

__[CreateReport.py](CreateReport.py)__ -
Python script for generating plot of the data.

__[BatteryReport.png](BatteryReport.png)__ -
Plots of historic data in a 3x3 grid:
- Vertical: three KPIs: Cycle Count, Full Charge Capacity (mAh), Voltage (mV).
- Horizontal: three time-windows: All time, Past week, Past day.

File: BatteryMonitorData.txt
Date, Cycle Count, Fully Charged, Charge Remaining (mAh), Full Charge Capacity (mAh), Voltage (mV)
18-11-2016 12:00, 377, Yes, 5110, 5110, 8379
18-11-2016 13:00, 377, Yes, 5110, 5110, 8379
18-11-2016 14:00, 377, Yes, 5110, 5110, 8379
18-11-2016 15:00, 377, Yes, 5110, 5110, 8379
18-11-2016 16:00, 377, Yes, 5110, 5110, 8379
18-11-2016 17:00, 377, Yes, 5110, 5110, 8379
18-11-2016 18:00, 377, Yes, 5110, 5110, 8379
18-11-2016 19:00, 377, Yes, 5110, 5110, 8379
18-11-2016 20:00, 377, Yes, 5065, 5116, 8286
18-11-2016 21:00, 377, Yes, 5065, 5116, 8286
18-11-2016 22:00, 377, Yes, 5065, 5116, 8286
18-11-2016 23:00, 377, Yes, 5065, 5116, 8286
19-11-2016 00:00, 377, Yes, 5065, 5116, 8286
19-11-2016 01:52, 377, Yes, 5066, 5116, 8289
19-11-2016 02:52, 377, Yes, 5066, 5116, 8289
19-11-2016 03:52, 377, Yes, 5066, 5116, 8289
19-11-2016 04:52, 377, Yes, 5066, 5116, 8289
19-11-2016 05:52, 377, Yes, 5053, 5116, 8288
19-11-2016 06:52, 377, Yes, 5053, 5116, 8288
19-11-2016 07:52, 377, Yes, 5053, 5116, 8288
19-11-2016 08:52, 377, Yes, 5053, 5116, 8288
19-11-2016 09:52, 377, Yes, 5053, 5116, 8288
19-11-2016 10:00, 377, Yes, 5053, 5116, 8287
19-11-2016 11:00, 377, Yes, 5053, 5116, 8287
19-11-2016 12:38, 377, Yes, 5002, 5102, 8263
19-11-2016 15:07, 377, Yes, 4935, 5070, 8114
19-11-2016 16:00, 377, No, 4373, 5106, 7894
19-11-2016 17:12, 377, No, 4290, 5106, 8059
19-11-2016 18:12, 377, No, 4319, 5093, 8171
19-11-2016 19:00, 377, No, 4979, 5093, 8371
19-11-2016 20:00, 377, Yes, 5093, 5093, 8378
19-11-2016 21:00, 377, Yes, 5093, 5093, 8378
19-11-2016 22:39, 377, Yes, 5093, 5093, 8291
19-11-2016 23:00, 377, Yes, 5093, 5093, 8290
20-11-2016 00:00, 377, Yes, 5093, 5093, 8290
20-11-2016 01:53, 377, Yes, 5033, 5103, 8264
20-11-2016 10:58, 377, Yes, 4965, 5100, 8263
20-11-2016 11:00, 377, Yes, 4965, 5100, 8263
20-11-2016 13:08, 377, Yes, 4954, 5105, 8240
20-11-2016 14:00, 377, Yes, 4938, 5107, 8246
20-11-2016 15:00, 377, Yes, 4938, 5107, 8246
20-11-2016 16:00, 377, Yes, 4938, 5107, 8246
20-11-2016 17:00, 377, Yes, 4938, 5107, 8246
20-11-2016 18:00, 377, Yes, 4938, 5107, 8246
20-11-2016 19:00, 377, Yes, 4938, 5107, 8246
20-11-2016 20:17, 377, Yes, 4924, 5107, 8246
20-11-2016 21:36, 377, Yes, 4924, 5107, 8247
20-11-2016 22:36, 377, Yes, 4924, 5107, 8247
20-11-2016 23:12, 377, Yes, 4941, 5107, 8247
21-11-2016 00:00, 377, Yes, 4941, 5107, 8247
21-11-2016 01:18, 377, Yes, 4924, 5120, 8225
21-11-2016 09:51, 377, Yes, 4864, 5117, 8225
21-11-2016 10:00, 377, Yes, 4864, 5117, 8225
21-11-2016 11:00, 377, Yes, 4864, 5117, 8225
21-11-2016 12:00, 377, Yes, 4864, 5117, 8225
21-11-2016 13:00, 377, Yes, 4864, 5117, 8225
21-11-2016 14:00, 377, Yes, 4864, 5117, 8225
21-11-2016 15:00, 377, Yes, 4864, 5117, 8225
21-11-2016 16:00, 377, Yes, 4864, 5117, 8225
21-11-2016 17:00, 377, Yes, 4864, 5117, 8225
21-11-2016 18:00, 377, Yes, 4864, 5117, 8225
21-11-2016 19:00, 377, Yes, 4864, 5117, 8225
21-11-2016 20:52, 377, No, 4857, 5127, 8204
21-11-2016 21:00, 377, No, 4935, 5127, 8322
21-11-2016 22:10, 377, Yes, 5127, 5127, 8295
21-11-2016 23:00, 377, Yes, 5127, 5127, 8295
22-11-2016 00:00, 377, Yes, 5127, 5127, 8295
22-11-2016 01:52, 377, Yes, 5063, 5099, 8263
22-11-2016 08:33, 377, Yes, 4955, 5070, 7925
22-11-2016 09:51, 377, No, 4804, 5070, 8201
22-11-2016 11:00, 377, No, 4784, 5066, 8315
22-11-2016 12:00, 377, Yes, 5066, 5066, 8379
22-11-2016 13:00, 377, Yes, 5066, 5066, 8379
22-11-2016 14:00, 377, Yes, 5066, 5066, 8379
22-11-2016 15:00, 377, Yes, 5066, 5066, 8379
22-11-2016 16:00, 377, Yes, 5066, 5066, 8379
22-11-2016 17:00, 377, Yes, 5066, 5066, 8379
22-11-2016 18:00, 377, Yes, 5066, 5066, 8379
22-11-2016 19:00, 377, Yes, 5066, 5066, 8379
22-11-2016 20:00, 377, Yes, 5066, 5066, 8379
22-11-2016 21:00, 377, Yes, 5086, 5126, 8287
22-11-2016 22:00, 377, Yes, 5086, 5126, 8287
22-11-2016 23:00, 377, Yes, 5086, 5126, 8287
23-11-2016 00:22, 377, Yes, 5086, 5126, 8287
23-11-2016 01:23, 377, Yes, 5089, 5126, 8288
23-11-2016 02:23, 377, Yes, 5089, 5126, 8288
23-11-2016 03:23, 377, Yes, 5089, 5126, 8287
23-11-2016 04:23, 377, Yes, 5089, 5126, 8287
23-11-2016 05:23, 377, Yes, 5089, 5126, 8287
23-11-2016 06:23, 377, Yes, 5080, 5126, 8287
23-11-2016 07:23, 377, Yes, 5080, 5126, 8286
23-11-2016 08:23, 377, Yes, 5080, 5126, 8287
23-11-2016 09:23, 377, Yes, 5080, 5126, 8286
23-11-2016 10:09, 377, Yes, 5080, 5126, 8287
23-11-2016 11:00, 377, Yes, 5028, 5093, 8270
23-11-2016 12:00, 377, Yes, 5028, 5093, 8270
23-11-2016 13:00, 377, Yes, 5028, 5093, 8270
23-11-2016 14:00, 377, Yes, 5028, 5093, 8270
23-11-2016 15:00, 377, Yes, 5028, 5093, 8270
23-11-2016 16:00, 377, Yes, 5028, 5093, 8270
23-11-2016 17:00, 377, Yes, 5028, 5093, 8270
23-11-2016 18:00, 377, Yes, 5028, 5093, 8270
23-11-2016 19:00, 377, Yes, 5028, 5093, 8270
23-11-2016 20:00, 377, Yes, 5056, 5131, 8269
23-11-2016 21:00, 377, Yes, 5056, 5131, 8269
23-11-2016 22:00, 377, Yes, 5056, 5131, 8269
23-11-2016 23:00, 377, Yes, 5056, 5131, 8269
24-11-2016 00:13, 377, Yes, 5056, 5131, 8274
24-11-2016 01:23, 377, Yes, 5056, 5131, 8274
24-11-2016 02:23, 377, Yes, 5056, 5131, 8275
24-11-2016 03:23, 377, Yes, 5056, 5131, 8274
24-11-2016 04:23, 377, Yes, 5056, 5131, 8274
24-11-2016 05:23, 377, Yes, 5056, 5131, 8274
24-11-2016 06:23, 377, Yes, 5045, 5131, 8274
24-11-2016 07:23, 377, Yes, 5045, 5131, 8273
24-11-2016 08:23, 377, Yes, 5045, 5131, 8273
24-11-2016 09:23, 377, Yes, 5045, 5131, 8273
24-11-2016 10:00, 377, Yes, 5045, 5131, 8273
24-11-2016 11:00, 377, Yes, 4989, 5098, 8262
24-11-2016 12:00, 377, Yes, 4989, 5098, 8262
24-11-2016 13:00, 377, Yes, 5012, 5129, 8071
24-11-2016 14:00, 377, Yes, 5012, 5129, 8071
24-11-2016 15:01, 377, Yes, 5012, 5129, 8263
24-11-2016 16:00, 377, Yes, 5012, 5129, 8263
24-11-2016 17:00, 377, Yes, 5012, 5129, 8263
24-11-2016 18:00, 377, Yes, 5012, 5129, 8263
24-11-2016 19:05, 377, Yes, 5001, 5131, 8246
24-11-2016 20:00, 377, Yes, 5001, 5131, 8252
24-11-2016 21:00, 377, Yes, 5001, 5131, 8252
24-11-2016 22:00, 377, Yes, 5001, 5131, 8252
24-11-2016 23:00, 377, Yes, 5001, 5131, 8254
25-11-2016 00:28, 377, Yes, 4997, 5131, 8255
25-11-2016 01:40, 377, Yes, 4997, 5131, 8255
25-11-2016 02:40, 377, Yes, 4997, 5131, 8255
25-11-2016 03:40, 377, Yes, 4997, 5131, 8255
25-11-2016 04:40, 377, Yes, 4982, 5131, 8255
25-11-2016 05:40, 377, Yes, 4982, 5131, 8255
25-11-2016 06:40, 377, Yes, 4982, 5131, 8254
25-11-2016 07:05, 377, Yes, 4982, 5131, 8255
25-11-2016 08:08, 377, Yes, 4901, 5086, 8231
25-11-2016 09:37, 377, No, 4273, 5123, 8044
25-11-2016 10:09, 377, No, 4894, 5123, 8351
25-11-2016 11:00, 377, Yes, 5123, 5123, 8377
25-11-2016 12:00, 377, Yes, 5123, 5123, 8377
25-11-2016 13:04, 377, No, 4571, 5082, 8130
25-11-2016 14:27, 377, No, 4396, 5129, 8083
25-11-2016 17:22, 377, No, 4389, 5125, 7801
25-11-2016 18:03, 377, No, 4110, 5125, 8001
25-11-2016 19:36, 377, No, 3969, 5154, 7969
25-11-2016 20:00, 377, No, 3563, 5118, 7664
25-11-2016 21:39, 377, No, 3285, 5153, 7826
27-11-2016 22:53, 377, No, 2999, 4847, 7535
27-11-2016 23:26, 377, No, 3884, 4847, 8322
28-11-2016 00:27, 377, No, 4798, 4847, 8374
28-11-2016 01:27, 377, Yes, 4847, 4847, 8283
28-11-2016 02:27, 377, Yes, 4847, 4847, 8273
28-11-2016 03:27, 377, Yes, 4847, 4847, 8268
28-11-2016 04:27, 377, Yes, 4847, 4847, 8266
28-11-2016 05:27, 377, Yes, 4847, 4847, 8263
28-11-2016 06:27, 377, Yes, 4847, 4847, 8261
28-11-2016 08:05, 377, Yes, 4713, 4803, 8235
28-11-2016 09:36, 377, Yes, 4621, 4758, 7999
28-11-2016 10:00, 377, No, 4353, 4845, 7914
28-11-2016 12:22, 377, No, 4081, 5072, 7741
28-11-2016 13:13, 377, No, 3724, 5090, 7890
28-11-2016 14:00, 378, No, 2773, 5056, 7466
28-11-2016 15:01, 378, No, 1370, 4950, 7156
28-11-2016 17:11, 378, No, 301, 4717, 7548
28-11-2016 18:00, 378, No, 2517, 4717, 8142
28-11-2016 19:00, 378, No, 4362, 4717, 8351
28-11-2016 20:30, 378, No, 4835, 4916, 8282
28-11-2016 21:00, 378, Yes, 4916, 4916, 8318
28-11-2016 22:00, 378, Yes, 4916, 4916, 8318
28-11-2016 23:00, 378, Yes, 4916, 4916, 8318
29-11-2016 00:00, 378, Yes, 4916, 4916, 8318
29-11-2016 01:56, 378, Yes, 4950, 4950, 8286
29-11-2016 02:57, 378, Yes, 4950, 4950, 8285
29-11-2016 03:57, 378, Yes, 4950, 4950, 8285
29-11-2016 04:58, 378, Yes, 4950, 4950, 8285
29-11-2016 05:00, 378, Yes, 4950, 4950, 8285
29-11-2016 06:01, 378, Yes, 4950, 4950, 8285
29-11-2016 07:02, 378, Yes, 4899, 4950, 8285
29-11-2016 08:02, 378, Yes, 4899, 4950, 8284
29-11-2016 09:00, 378, Yes, 4899, 4950, 8284
29-11-2016 10:00, 378, Yes, 4899, 4950, 8284
29-11-2016 11:00, 378, Yes, 4892, 4965, 8272
29-11-2016 12:00, 378, Yes, 4892, 4965, 8272
29-11-2016 13:00, 378, Yes, 4892, 4965, 8272
29-11-2016 14:00, 378, Yes, 4892, 4965, 8272
29-11-2016 15:00, 378, Yes, 4892, 4965, 8272
29-11-2016 16:00, 378, Yes, 4892, 4965, 8272
29-11-2016 17:00, 378, Yes, 4945, 5014, 8195
29-11-2016 18:00, 378, Yes, 4945, 5014, 8195
29-11-2016 19:59, 378, Yes, 4917, 5026, 8254
29-11-2016 20:00, 378, Yes, 4917, 5026, 8254
29-11-2016 21:00, 378, No, 4704, 4910, 8354
29-11-2016 22:00, 378, Yes, 4910, 4910, 8378
29-11-2016 23:00, 378, Yes, 4910, 4910, 8378
30-11-2016 00:00, 378, Yes, 4910, 4910, 8378
30-11-2016 01:31, 378, Yes, 4910, 4910, 8302
30-11-2016 02:32, 378, Yes, 4910, 4910, 8303
30-11-2016 03:32, 378, Yes, 4910, 4910, 8303
30-11-2016 04:32, 378, Yes, 4910, 4910, 8302
30-11-2016 05:32, 378, Yes, 4910, 4910, 8303
30-11-2016 06:32, 378, Yes, 4910, 4910, 8302
30-11-2016 07:32, 378, Yes, 4864, 4910, 8302
30-11-2016 08:28, 378, Yes, 4864, 4910, 8302
30-11-2016 09:00, 378, Yes, 4864, 4910, 8302
30-11-2016 10:00, 378, Yes, 4881, 4934, 8293
30-11-2016 11:00, 378, Yes, 4881, 4934, 8293
30-11-2016 12:00, 378, Yes, 4881, 4934, 8293
30-11-2016 13:00, 378, Yes, 4881, 4934, 8293
30-11-2016 14:00, 378, Yes, 4881, 4934, 8293
30-11-2016 15:00, 378, Yes, 4881, 4934, 8293
30-11-2016 16:00, 378, Yes, 4881, 4934, 8293
30-11-2016 17:00, 378, Yes, 4881, 4934, 8293
30-11-2016 18:00, 378, Yes, 4881, 4934, 8293
30-11-2016 19:00, 378, No, 4621, 4959, 8220
30-11-2016 20:00, 378, No, 3375, 5083, 7491
30-11-2016 21:00, 378, No, 4348, 5070, 8322
30-11-2016 22:00, 378, Yes, 5070, 5070, 8378
30-11-2016 23:00, 378, Yes, 5070, 5070, 8378